Folder: ploting

File: tensile.csv
,Fe,C,Si,Mn,P,S,Alt,elasticite,traction,plasticite,resistance_chocs
1,98.05,0.12,0.38,1.43,0.017,0.003,0.024,415,525,24,186
3,98.05,0.12,0.38,1.43,0.017,0.003,0.024,405,530,24,228
5,98.066,0.11,0.38,1.42,0.017,0.007,0.024,425,545,23,174
7,98.066,0.11,0.38,1.42,0.017,0.007,0.024,460,555,24,189
9,98.016,0.12,0.4,1.44,0.019,0.005,0.027,430,520,24,109
11,98.016,0.12,0.4,1.44,0.019,0.005,0.027,460,560,23,186
13,98.09,0.1,0.39,1.4,0.015,0.005,0.024,420,520,22,230
15,98.09,0.1,0.39,1.4,0.015,0.005,0.024,425,525,24,216
17,98.057,0.1,0.4,1.42,0.017,0.006,0.026,425,530,24,217
19,98.068,0.12,0.36,1.43,0.018,0.004,0.024,450,545,24,155
21,98.068,0.12,0.36,1.43,0.018,0.004,0.024,420,540,26,150
23,98.068,0.12,0.36,1.43,0.018,0.004,0.024,395,535,24,189
25,98.067,0.11,0.35,1.45,0.018,0.005,0.026,430,520,24,230
27,98.073,0.1,0.38,1.42,0.02,0.007,0.022,405,525,23,222
29,98.073,0.1,0.38,1.42,0.02,0.007,0.022,420,525,26,178
31,98.082,0.12,0.35,1.43,0.015,0.003,0.028,430,545,24,168
33,98.082,0.12,0.35,1.43,0.015,0.003,0.028,405,540,23,164
35,98.067,0.11,0.4,1.4,0.017,0.006,0.022,410,545,25,93
37,98.067,0.11,0.4,1.4,0.017,0.006,0.022,415,530,22,57
39,98.098,0.1,0.37,1.41,0.019,0.003,0.021,410,545,25,103
41,98.061,0.12,0.4,1.4,0.015,0.004,0.023,415,535,25,87
43,98.061,0.12,0.4,1.4,0.015,0.004,0.023,415,520,25,152
45,98.061,0.12,0.4,1.4,0.015,0.004,0.023,390,515,24,152
47,98.051,0.1,0.4,1.43,0.015,0.004,0.023,385,510,26,115
49,98.067,0.11,0.4,1.4,0.017,0.006,0.022,395,525,24,157
51,98.051,0.1,0.4,1.43,0.015,0.004,0.023,400,520,21,183
53,98.067,0.11,0.4,1.4,0.017,0.006,0.022,400,525,25,165
55,98.098,0.1,0.37,1.41,0.019,0.003,0.028,415,525,26,208
57,97.991,0.12,0.38,1.49,0.015,0.004,0.029,490,605,24,112
59,98.068,0.1,0.35,1.46,0.015,0.007,0.023,380,480,27,120
61,98.081,0.11,0.34,1.45,0.016,0.003,0.02,411,533,24.5,153
63,98.068,0.1,0.35,1.46,0.017,0.005,0.028,421,534,25.5,136
65,98.119,0.1,0.35,1.41,0.015,0.006,0.026,425,536,23,93
67,98.119,0.1,0.35,1.41,0.015,0.006,0.026,410,527,23.5,152
69,98.109,0.1,0.34,1.43,0.018,0.003,0.03,403,530,23.5,86
71,98.057,0.11,0.34,1.47,0.018,0.005,0.026,430,540,24,210.6667
73,98.159,0.12,0.3,1.4,0.014,0.007,0.038,350,505,29,239
75,98.142,0.12,0.28,1.43,0.019,0.009,0.026,345,500,30,189.6667
77,98.263,0.12,0.3,1.3,0.012,0.005,0.023,365,515,29,114.3333
79,98.089,0.12,0.34,1.43,0.014,0.007,0.02,345,485,30,196
81,98.052,0.14,0.33,1.45,0.024,0.004,0.025,380,520,26,156.6667
83,98.127,0.08,0.37,1.4,0.015,0.008,0.022,405,505,32,150.6667
85,98.126,0.13,0.29,1.42,0.024,0.01,0.025,360,510,26,108.3333
87,98.019,0.14,0.34,1.47,0.025,0.006,0.027,410,555,24,221.6667
89,98.011,0.16,0.36,1.45,0.016,0.003,0.027,395,540,30,91
91,98,0.11,0.38,1.49,0.015,0.005,0.025,405,525,29,92.66667
93,98.139,0.11,0.32,1.41,0.014,0.007,0.025,370,510,2805,112.3333
95,98.147,0.1,0.34,1.4,0.011,0.002,0.037,415,525,25.5,207.3333
97,98.097,0.12,0.32,1.44,0.02,0.003,0.024,395,503,25.5,135.1667
99,98.228,0.1,0.27,1.38,0.013,0.009,0.021,390,485,21.5,201.3333
101,98.095,0.14,0.35,1.39,0.02,0.005,0.028,390,540,28,146.6667
103,98.034,0.11,0.38,1.45,0.021,0.005,0.029,505,615,28.5,221.6667
105,97.954,0.15,0.39,1.48,0.015,0.011,0.023,375,530,26.5,147
107,98.01,0.13,0.35,1.48,0.02,0.01,0.024,345,505,33.5,192.667
109,98.118,0.11,0.35,1.4,0.017,0.005,0.038,445,570,26,118
111,98.176,0.11,0.32,1.38,0.011,0.003,0.023,400,500,27,172.3333
113,98.113,0.16,0.36,1.34,0.016,0.011,0.03,425,560,22,94
115,98.221,0.14,0.34,1.28,0.015,0.004,0.028,390,530,22,222.6667
117,98.09,0.11,0.4,1.38,0.014,0.006,0.025,410,540,21.5,120.3333
119,98.012,0.14,0.39,1.43,0.025,0.003,0.034,455,540,24,205
121,97.986,0.12,0.38,1.49,0.018,0.006,0.023,375,520,22,159.333
123,98.084,0.1,0.37,1.42,0.021,0.005,0.021,415,535,27,224.3333
125,98.113,0.1,0.37,1.39,0.021,0.006,0.027,425,540,30.5,268.3333
127,97.949,0.14,0.44,1.44,0.027,0.004,0.02,385,525,22,202.3333
129,98.09,0.11,0.4,1.38,0.014,0.006,0.025,410,545,24.5,89.66667
131,97.998,0.16,0.36,1.45,0.028,0.004,0.02,395,507,34.5,203.3333
133,97.998,0.16,0.36,1.45,0.028,0.004,0.02,421,574,27,275.6667
135,98.163,0.14,0.29,1.37,0.015,0.022,0.031,401,531,27.5,114.3333
137,98.085,0.14,0.29,1.45,0.023,0.012,0.041,369,527,29.5,234.6667
139,98.008,0.17,0.34,1.45,0.022,0.01,0.035,433,617,26,90.3333
141,97.986,0.14,0.35,1.5,0.017,0.007,0.035,330,503,28,92.8333
143,97.986,0.14,0.35,1.5,0.017,0.007,0.035,381,526,27.5,64.66667
145,98.328,0.09,0.29,1.27,0.02,0.002,0.026,385,522,30.5,265
147,98.132,0.15,0.35,1.35,0.011,0.007,0.042,359,529,32,94.83333
149,98.072,0.15,0.34,1.41,0.019,0.009,0.04,420,544,29.5,221.6667
151,98.121,0.14,0.35,1.37,0.015,0.004,0.025,386,525,24.5,253.6667
153,98.079,0.14,0.35,1.41,0.015,0.006,0.031,459,578,29.5,238.3333
155,98.1,0.15,0.35,1.38,0.016,0.004,0.036,385,569,26.5,257.6667
157,98.072,0.15,0.34,1.41,0.019,0.009,0.04,405,551,30,280.6667
159,98,0.15,0.42,1.41,0.018,0.002,0.029,388,545,29,82.66667
161,98.149,0.12,0.36,1.35,0.014,0.007,0.023,405,532,25.5,151
163,97.98,0.13,0.38,1.49,0.016,0.004,0.033,412,566,28,66
165,98.081,0.13,0.33,1.43,0.022,0.007,0.034,388,541,31,124
167,98.171,0.12,0.32,1.36,0.024,0.005,0.025,365,525,28.5,200.5
169,98.058,0.15,0.37,1.4,0.017,0.005,0.033,376,545,28,49.6667
171,98.004,0.13,0.36,1.48,0.017,0.009,0.023,397,537,31.5,289
173,98.109,0.14,0.34,1.39,0.019,0.002,0.028,398,562,28.5,47.33333
175,98.089,0.12,0.34,1.43,0.014,0.007,0.02,351,505,26,146.5
177,98.177,0.12,0.29,1.39,0.017,0.006,0.02,380,523,30,171
179,98.055,0.14,0.36,1.42,0.016,0.009,0.036,390,527,28.5,69.333
181,98.177,0.12,0.29,1.39,0.017,0.006,0.02,394,535,32.5,233.6667
183,98.106,0.16,0.33,1.38,0.017,0.007,0.02,386,539,30,246.333
185,98.106,0.16,0.33,1.38,0.017,0.007,0.02,395,541,27,178.6667
187,98.069,0.13,0.3,1.47,0.024,0.007,0.02,386,537,31,195.6667
189,98.128,0.12,0.28,1.45,0.015,0.007,0.031,365,510,31,98.3333
191,98.121,0.13,0.31,1.41,0.016,0.013,0.021,367,508,32,109
193,98.106,0.16,0.33,1.38,0.017,0.007,0.02,395,541,27,178.6667
195,98.122,0.13,0.31,1.42,0.012,0.006,0.02,387,516,33,123.3333
197,98.128,0.12,0.28,1.45,0.015,0.007,0.031,359,506,31,126.333
199,98.069,0.13,0.3,1.47,0.024,0.007,0.02,409,537,38.5,140.6667
202,98.5087,0.548,0.267,0.64,0.017,0.0193,,432,732,39.5,20.2
204,98.5384,0.494,0.268,0.66,0.026,0.0136,,418,693,42.8,19.3
206,98.4624,0.485,0.314,0.702,0.015,0.0216,,407,693,44.8,23.9
208,98.5228,0.462,0.28,0.694,0.015,0.0262,,398,660,45.6,23.9
210,98.53,0.44,0.301,0.69,0.015,0.024,,384,634,47.9,25